STUDYID,USUBJID,SUBJID,SITEID,AGE,AGEU,SEX,RACE,ETHNIC,SAFFL,ITTFL,PPROTFL,ARMCD,ARM,ACTARMCD,ACTARM,TRT01P,TRT01PN,TRT01A,TRT01AN,RFSTDTC,RFENDTC,RFXSTDTC,RFXENDTC,EOSSTT,EOTSTT,TRTSDT,TRTEDT,TRTDURD,AVGDD,CUMDOSE,HEIGHTBL,WEIGHTBL,BMIBL,DTHFL,DTHDT,DURDIS,VISNUMEN
STUDY001,STUDY001-SUBJ0001,SUBJ0001,50,72,YEARS,F,AMERICAN INDIAN OR ALASKA NATIVE,NOT HISPANIC OR LATINO,Y,Y,N,ARM5,Treatment 5,ARM5,Treatment 5,Treatment 5,5,Treatment 5,5,2025-12-18,2026-08-16,2025-10-08,2026-08-20,COMPLETED,COMPLETED,2025-10-08,2026-08-20,317,0.97,306.3,176.5,51.0,18.7,N,,99,9
STUDY001,STUDY001-SUBJ0002,SUBJ0002,44,40,YEARS,F,WHITE,NOT HISPANIC OR LATINO,Y,Y,Y,ARM2,Treatment 2,ARM2,Treatment 2,Treatment 2,2,Treatment 2,2,2026-04-08,2026-08-06,2026-04-30,2026-08-13,COMPLETED,COMPLETED,2026-04-30,2026-08-13,106,0.98,100.9,175.3,113.0,33.3,N,,115,9
STUDY001,STUDY001-SUBJ0003,SUBJ0003,38,37,YEARS,F,WHITE,NOT HISPANIC OR LATINO,Y,Y,Y,ARM3,Treatment 3,ARM3,Treatment 3,Treatment 3,3,Treatment 3,3,2025-09-24,2026-08-01,2026-04-04,2026-08-26,COMPLETED,COMPLETED,2026-04-04,2026-08-26,145,0.97,139.5,181.9,96.1,24.0,N,,101,9
STUDY001,STUDY001-SUBJ0004,SUBJ0004,29,57,YEARS,F,ASIAN,HISPANIC OR LATINO,Y,Y,Y,ARM2,Treatment 2,ARM2,Treatment 2,Treatment 2,2,Treatment 2,2,2026-05-06,2026-08-06,2026-01-17,2026-08-02,COMPLETED,COMPLETED,2026-01-17,2026-08-02,198,0.97,193.3,165.5,117.3,32.7,N,,5,9
STUDY001,STUDY001-SUBJ0005,SUBJ0005,14,52,YEARS,F,WHITE,NOT HISPANIC OR LATINO,Y,Y,Y,ARM5,Treatment 5,ARM5,Treatment 5,Treatment 5,5,Treatment 5,5,2025-09-17,2026-08-01,2026-02-03,2026-08-08,ADVERSE EVENT,ADVERSE EVENT,2026-02-03,2026-08-08,187,0.68,107.0,155.3,86.9,22.2,N,,105,7
STUDY001,STUDY001-SUBJ0006,SUBJ0006,34,57,YEARS,F,AMERICAN INDIAN OR ALASKA NATIVE,NOT HISPANIC OR LATINO,Y,Y,Y,ARM4,Treatment 4,ARM4,Treatment 4,Treatment 4,4,Treatment 4,4,2025-09-26,2026-08-06,2026-01-29,2026-08-14,COMPLETED,COMPLETED,2026-01-29,2026-08-14,198,0.98,192.2,186.0,59.9,30.8,N,,115,9
STUDY001,STUDY001-SUBJ0007,SUBJ0007,10,52,YEARS,M,WHITE,HISPANIC OR LATINO,Y,Y,Y,ARM1,Treatment 1,ARM1,Treatment 1,Treatment 1,1,Treatment 1,1,2026-02-20,2026-07-30,2026-04-10,2026-08-17,COMPLETED,COMPLETED,2026-04-10,2026-08-17,130,0.99,127.9,158.5,78.3,18.8,N,,105,9
STUDY001,STUDY001-SUBJ0008,SUBJ0008,17,38,YEARS,M,AMERICAN INDIAN OR ALASKA NATIVE,HISPANIC OR LATINO,Y,Y,Y,ARM4,Treatment 4,ARM4,Treatment 4,Treatment 4,4,Treatment 4,4,2026-02-09,2026-08-07,2026-06-09,2026-08-18,WITHDRAWAL BY SUBJECT,WITHDRAWAL BY SUBJECT,2026-06-09,2026-08-18,71,0.92,48.9,157.2,106.9,26.5,N,,119,5
STUDY001,STUDY001-SUBJ0009,SUBJ0009,30,43,YEARS,M,AMERICAN INDIAN OR ALASKA NATIVE,NOT HISPANIC OR LATINO,Y,Y,Y,ARM2,Treatment 2,ARM2,Treatment 2,Treatment 2,2,Treatment 2,2,2026-01-26,2026-08-20,2026-04-19,2026-08-13,COMPLETED,COMPLETED,2026-04-19,2026-08-13,117,0.98,116.7,163.0,87.1,25.7,N,,85,9
STUDY001,STUDY001-SUBJ0010,SUBJ0010,14,40,YEARS,F,AMERICAN INDIAN OR ALASKA NATIVE,NOT HISPANIC OR LATINO,Y,Y,Y,ARM5,Treatment 5,ARM5,Treatment 5,Treatment 5,5,Treatment 5,5,2026-05-05,2026-08-03,2026-01-03,2026-08-25,COMPLETED,COMPLETED,2026-01-03,2026-08-25,235,0.97,227.6,188.6,68.5,34.1,N,,62,9
STUDY001,STUDY001-SUBJ0011,SUBJ0011,38,78,YEARS,M,OTHER,HISPANIC OR LATINO,Y,Y,Y,ARM2,Treatment 2,ARM2,Treatment 2,Treatment 2,2,Treatment 2,2,2026-01-09,2026-08-01,2025-12-29,2026-08-26,COMPLETED,COMPLETED,2025-12-29,2026-08-26,241,0.96,231.4,198.5,116.4,19.8,N,,10,9
STUDY001,STUDY001-SUBJ0012,SUBJ0012,46,24,YEARS,F,ASIAN,NOT HISPANIC OR LATINO,Y,Y,Y,ARM3,Treatment 3,ARM3,Treatment 3,Treatment 3,3,Treatment 3,3,2026-01-13,2026-08-01,2026-06-14,2026-08-02,WITHDRAWAL BY SUBJECT,WITHDRAWAL BY SUBJECT,2026-06-14,2026-08-02,50,0.93,37.7,179.5,86.4,18.3,N,,39,5
STUDY001,STUDY001-SUBJ0013,SUBJ0013,37,66,YEARS,F,ASIAN,HISPANIC OR LATINO,Y,Y,Y,ARM1,Treatment 1,ARM1,Treatment 1,Treatment 1,1,Treatment 1,1,2025-11-29,2026-07-29,2025-11-06,2026-08-16,COMPLETED,COMPLETED,2025-11-06,2026-08-16,284,0.96,283.3,154.3,61.7,24.6,N,,117,9
STUDY001,STUDY001-SUBJ0014,SUBJ0014,28,80,YEARS,F,BLACK OR AFRICAN AMERICAN,NOT HISPANIC OR LATINO,Y,Y,Y,ARM4,Treatment 4,ARM4,Treatment 4,Treatment 4,4,Treatment 4,4,2026-03-03,2026-08-09,2026-06-28,2026-07-29,COMPLETED,COMPLETED,2026-06-28,2026-07-29,32,0.97,31.5,155.5,68.5,20.8,N,,27,9
STUDY001,STUDY001-SUBJ0015,SUBJ0015,31,64,YEARS,M,ASIAN,NOT HISPANIC OR LATINO,Y,Y,Y,ARM4,Treatment 4,ARM4,Treatment 4,Treatment 4,4,Treatment 4,4,2026-06-02,2026-08-11,2026-06-18,2026-08-17,LOST TO FOLLOW-UP,LOST TO FOLLOW-UP,2026-06-18,2026-08-17,61,0.62,45.3,174.2,67.9,32.7,N,,6,5
STUDY001,STUDY001-SUBJ0016,SUBJ0016,6,55,YEARS,M,BLACK OR AFRICAN AMERICAN,NOT HISPANIC OR LATINO,Y,Y,Y,ARM5,Treatment 5,ARM5,Treatment 5,Treatment 5,5,Treatment 5,5,2025-11-29,2026-07-29,2025-09-16,2026-08-25,COMPLETED,COMPLETED,2025-09-16,2026-08-25,344,0.96,330.6,152.3,90.5,31.5,N,,96,9
STUDY001,STUDY001-SUBJ0017,SUBJ0017,45,48,YEARS,F,BLACK OR AFRICAN AMERICAN,NOT HISPANIC OR LATINO,Y,Y,Y,ARM2,Treatment 2,ARM2,Treatment 2,Treatment 2,2,Treatment 2,2,2025-12-13,2026-08-10,2025-12-14,2026-08-05,ADVERSE EVENT,ADVERSE EVENT,2025-12-14,2026-08-05,235,0.8,120.7,180.5,78.3,33.4,N,,104,7
STUDY001,STUDY001-SUBJ0018,SUBJ0018,21,28,YEARS,F,AMERICAN INDIAN OR ALASKA NATIVE,HISPANIC OR LATINO,Y,Y,Y,ARM1,Treatment 1,ARM2,Treatment 2,Treatment 1,1,Treatment 2,2,2025-10-30,2026-08-20,2025-11-30,2026-07-28,COMPLETED,COMPLETED,2025-11-30,2026-07-28,241,0.98,233.6,196.2,65.0,30.8,N,,100,9
STUDY001,STUDY001-SUBJ0019,SUBJ0019,31,71,YEARS,F,WHITE,HISPANIC OR LATINO,Y,Y,Y,ARM3,Treatment 3,ARM3,Treatment 3,Treatment 3,3,Treatment 3,3,2025-11-01,2026-08-16,2026-02-12,2026-08-03,ADVERSE EVENT,ADVERSE EVENT,2026-02-12,2026-08-03,173,0.58,92.7,162.9,86.4,31.0,N,,86,1
STUDY001,STUDY001-SUBJ0020,SUBJ0020,3,76,YEARS,F,OTHER,NOT HISPANIC OR LATINO,Y,Y,Y,ARM4,Treatment 4,ARM4,Treatment 4,Treatment 4,4,Treatment 4,4,2026-01-31,2026-08-18,2025-09-24,2026-08-21,WITHDRAWAL BY SUBJECT,WITHDRAWAL BY SUBJECT,2025-09-24,2026-08-21,332,0.53,281.7,162.5,55.8,19.5,N,,56,1
STUDY001,STUDY001-SUBJ0021,SUBJ0021,26,72,YEARS,F,OTHER,HISPANIC OR LATINO,Y,Y,Y,ARM1,Treatment 1,ARM1,Treatment 1,Treatment 1,1,Treatment 1,1,2026-01-24,2026-08-22,2026-05-12,2026-08-03,COMPLETED,COMPLETED,2026-05-12,2026-08-03,84,0.98,81.6,152.3,59.2,25.3,N,,97,9
STUDY001,STUDY001-SUBJ0022,SUBJ0022,42,40,YEARS,F,BLACK OR AFRICAN AMERICAN,NOT HISPANIC OR LATINO,Y,Y,Y,ARM4,Treatment 4,ARM4,Treatment 4,Treatment 4,4,Treatment 4,4,2026-05-04,2026-08-11,2025-09-04,2026-07-29,COMPLETED,COMPLETED,2025-09-04,2026-07-29,329,0.97,317.7,153.3,77.5,31.4,N,,81,9
STUDY001,STUDY001-SUBJ0023,SUBJ0023,23,33,YEARS,F,AMERICAN INDIAN OR ALASKA NATIVE,HISPANIC OR LATINO,Y,Y,Y,ARM4,Treatment 4,ARM4,Treatment 4,Treatment 4,4,Treatment 4,4,2026-02-04,2026-08-05,2026-04-26,2026-08-16,COMPLETED,COMPLETED,2026-04-26,2026-08-16,113,0.98,108.6,151.4,75.6,26.0,N,,82,9
STUDY001,STUDY001-SUBJ0024,SUBJ0024,9,68,YEARS,F,WHITE,NOT HISPANIC OR LATINO,Y,Y,Y,ARM2,Treatment 2,ARM2,Treatment 2,Treatment 2,2,Treatment 2,2,2026-01-28,2026-08-03,2026-07-03,2026-07-29,COMPLETED,COMPLETED,2026-07-03,2026-07-29,27,0.98,26.6,187.7,60.4,22.5,N,,34,9
STUDY001,STUDY001-SUBJ0025,SUBJ0025,26,37,YEARS,M,ASIAN,HISPANIC OR LATINO,Y,Y,Y,ARM4,Treatment 4,ARM4,Treatment 4,Treatment 4,4,Treatment 4,4,2025-10-11,2026-08-18,2025-10-22,2026-08-03,COMPLETED,COMPLETED,2025-10-22,2026-08-03,286,0.99,273.7,192.3,119.3,24.6,N,,18,9
STUDY001,STUDY001-SUBJ0026,SUBJ0026,22,18,YEARS,M,AMERICAN INDIAN OR ALASKA NATIVE,HISPANIC OR LATINO,Y,Y,Y,ARM5,Treatment 5,ARM5,Treatment 5,Treatment 5,5,Treatment 5,5,2026-05-22,2026-08-25,2026-01-31,2026-08-24,COMPLETED,COMPLETED,2026-01-31,2026-08-24,206,0.99,205.0,166.5,117.8,19.9,N,,13,9
STUDY001,STUDY001-SUBJ0027,SUBJ0027,41,74,YEARS,M,WHITE,NOT HISPANIC OR LATINO,Y,Y,Y,ARM2,Treatment 2,ARM2,Treatment 2,Treatment 2,2,Treatment 2,2,2026-01-11,2026-08-04,2026-04-10,2026-08-05,COMPLETED,COMPLETED,2026-04-10,2026-08-05,118,1.0,114.6,195.2,107.7,22.1,N,,102,9
STUDY001,STUDY001-SUBJ0028,SUBJ0028,19,38,YEARS,F,WHITE,NOT HISPANIC OR LATINO,Y,Y,Y,ARM3,Treatment 3,ARM3,Treatment 3,Treatment 3,3,Treatment 3,3,2026-02-20,2026-08-08,2025-11-09,2026-08-07,COMPLETED,COMPLETED,2025-11-09,2026-08-07,272,0.95,262.6,193.3,100.5,30.1,N,,94,9
STUDY001,STUDY001-SUBJ0029,SUBJ0029,38,29,YEARS,M,ASIAN,NOT HISPANIC OR LATINO,Y,Y,Y,ARM5,Treatment 5,ARM5,Treatment 5,Treatment 5,5,Treatment 5,5,2025-11-18,2026-07-28,2025-09-10,2026-08-04,COMPLETED,COMPLETED,2025-09-10,2026-08-04,329,0.98,328.8,185.5,78.8,33.5,N,,117,9
STUDY001,STUDY001-SUBJ0030,SUBJ0030,40,28,YEARS,M,WHITE,NOT HISPANIC OR LATINO,Y,Y,Y,ARM1,Treatment 1,ARM1,Treatment 1,Treatment 1,1,Treatment 1,1,2026-03-21,2026-08-10,2026-07-19,2026-08-25,COMPLETED,COMPLETED,2026-07-19,2026-08-25,38,0.98,37.9,169.7,119.4,25.9,N,,12,9
STUDY001,STUDY001-SUBJ0031,SUBJ0031,18,54,YEARS,M,AMERICAN INDIAN OR ALASKA NATIVE,HISPANIC OR LATINO,Y,Y,Y,ARM3,Treatment 3,ARM3,Treatment 3,Treatment 3,3,Treatment 3,3,2026-04-15,2026-08-22,2026-06-11,2026-08-11,ADVERSE EVENT,ADVERSE EVENT,2026-06-11,2026-08-11,62,0.91,45.4,181.8,80.5,26.7,N,,7,4
STUDY001,STUDY001-SUBJ0032,SUBJ0032,29,80,YEARS,M,OTHER,NOT HISPANIC OR LATINO,Y,Y,Y,ARM5,Treatment 5,ARM5,Treatment 5,Treatment 5,5,Treatment 5,5,2025-10-06,2026-08-10,2026-02-28,2026-08-25,COMPLETED,COMPLETED,2026-02-28,2026-08-25,179,0.98,172.0,194.8,74.5,29.3,N,,95,9
STUDY001,STUDY001-SUBJ0033,SUBJ0033,15,30,YEARS,F,WHITE,NOT HISPANIC OR LATINO,Y,Y,Y,ARM3,Treatment 3,ARM3,Treatment 3,Treatment 3,3,Treatment 3,3,2025-09-01,2026-08-01,2026-06-27,2026-08-23,COMPLETED,COMPLETED,2026-06-27,2026-08-23,58,0.98,57.2,175.9,73.0,27.9,N,,103,9
STUDY001,STUDY001-SUBJ0034,SUBJ0034,6,44,YEARS,M,OTHER,NOT HISPANIC OR LATINO,Y,Y,Y,ARM1,Treatment 1,ARM1,Treatment 1,Treatment 1,1,Treatment 1,1,2025-12-03,2026-08-20,2026-04-11,2026-08-12,COMPLETED,COMPLETED,2026-04-11,2026-08-12,124,0.95,118.7,188.2,65.9,24.1,N,,20,9
STUDY001,STUDY001-SUBJ0035,SUBJ0035,41,24,YEARS,F,AMERICAN INDIAN OR ALASKA NATIVE,NOT HISPANIC OR LATINO,Y,Y,Y,ARM2,Treatment 2,ARM2,Treatment 2,Treatment 2,2,Treatment 2,2,2026-07-09,2026-08-09,2025-09-18,2026-07-28,COMPLETED,COMPLETED,2025-09-18,2026-07-28,314,0.97,298.6,166.9,94.1,25.5,N,,6,9
STUDY001,STUDY001-SUBJ0036,SUBJ0036,13,18,YEARS,M,BLACK OR AFRICAN AMERICAN,NOT HISPANIC OR LATINO,Y,Y,Y,ARM4,Treatment 4,ARM4,Treatment 4,Treatment 4,4,Treatment 4,4,2026-04-05,2026-07-29,2025-11-29,2026-07-30,COMPLETED,COMPLETED,2025-11-29,2026-07-30,244,0.96,233.4,197.5,56.8,19.1,N,,85,9
STUDY001,STUDY001-SUBJ0037,SUBJ0037,8,46,YEARS,M,BLACK OR AFRICAN AMERICAN,HISPANIC OR LATINO,Y,Y,Y,ARM3,Treatment 3,ARM3,Treatment 3,Treatment 3,3,Treatment 3,3,2025-10-30,2026-08-17,2026-03-28,2026-08-08,WITHDRAWAL BY SUBJECT,WITHDRAWAL BY SUBJECT,2026-03-28,2026-08-08,134,0.62,82.1,180.2,111.2,19.5,N,,66,8
STUDY001,STUDY001-SUBJ0038,SUBJ0038,28,25,YEARS,M,AMERICAN INDIAN OR ALASKA NATIVE,HISPANIC OR LATINO,Y,Y,Y,ARM1,Treatment 1,ARM1,Treatment 1,Treatment 1,1,Treatment 1,1,2026-06-26,2026-08-23,2025-12-25,2026-08-09,COMPLETED,COMPLETED,2025-12-25,2026-08-09,228,0.97,217.5,183.7,94.9,31.9,N,,14,9
STUDY001,STUDY001-SUBJ0039,SUBJ0039,30,80,YEARS,M,BLACK OR AFRICAN AMERICAN,HISPANIC OR LATINO,Y,Y,Y,ARM1,Treatment 1,ARM1,Treatment 1,Treatment 1,1,Treatment 1,1,2026-05-28,2026-08-19,2025-11-19,2026-08-25,COMPLETED,COMPLETED,2025-11-19,2026-08-25,280,0.99,278.0,194.9,72.0,20.0,N,,43,9
STUDY001,STUDY001-SUBJ0040,SUBJ0040,7,21,YEARS,F,WHITE,HISPANIC OR LATINO,Y,Y,Y,ARM1,Treatment 1,ARM1,Treatment 1,Treatment 1,1,Treatment 1,1,2026-01-19,2026-08-21,2026-01-02,2026-08-05,COMPLETED,COMPLETED,2026-01-02,2026-08-05,216,0.99,213.4,155.1,107.4,34.6,N,,74,9
STUDY001,STUDY001-SUBJ0041,SUBJ0041,34,40,YEARS,M,WHITE,HISPANIC OR LATINO,Y,Y,Y,ARM1,Treatment 1,ARM5,Treatment 5,Treatment 1,1,Treatment 5,5,2026-02-20,2026-08-16,2026-01-18,2026-08-20,WITHDRAWAL BY SUBJECT,WITHDRAWAL BY SUBJECT,2026-01-18,2026-08-20,215,0.67,182.0,157.2,102.5,27.0,N,,75,8
STUDY001,STUDY001-SUBJ0042,SUBJ0042,6,79,YEARS,F,BLACK OR AFRICAN AMERICAN,NOT HISPANIC OR LATINO,Y,Y,Y,ARM5,Treatment 5,ARM3,Treatment 3,Treatment 5,5,Treatment 3,3,2026-05-12,2026-08-16,2025-11-02,2026-08-14,COMPLETED,COMPLETED,2025-11-02,2026-08-14,286,0.99,280.6,160.3,70.2,29.0,N,,21,9
STUDY001,STUDY001-SUBJ0043,SUBJ0043,36,76,YEARS,M,BLACK OR AFRICAN AMERICAN,HISPANIC OR LATINO,Y,Y,Y,ARM5,Treatment 5,ARM5,Treatment 5,Treatment 5,5,Treatment 5,5,2025-12-19,2026-08-17,2026-04-19,2026-08-11,COMPLETED,COMPLETED,2026-04-19,2026-08-11,115,0.98,112.9,175.7,111.1,28.0,N,,92,9
STUDY001,STUDY001-SUBJ0044,SUBJ0044,35,19,YEARS,F,BLACK OR AFRICAN AMERICAN,HISPANIC OR LATINO,Y,Y,Y,ARM4,Treatment 4,ARM4,Treatment 4,Treatment 4,4,Treatment 4,4,2025-11-27,2026-08-03,2025-11-08,2026-08-26,COMPLETED,COMPLETED,2025-11-08,2026-08-26,292,0.95,284.9,168.2,110.6,22.7,N,,84,9
STUDY001,STUDY001-SUBJ0045,SUBJ0045,34,26,YEARS,M,OTHER,NOT HISPANIC OR LATINO,Y,Y,Y,ARM1,Treatment 1,ARM1,Treatment 1,Treatment 1,1,Treatment 1,1,2025-10-23,2026-08-12,2026-07-22,2026-08-08,COMPLETED,COMPLETED,2026-07-22,2026-08-08,18,0.99,17.4,151.0,103.4,25.3,N,,106,9
STUDY001,STUDY001-SUBJ0046,SUBJ0046,48,47,YEARS,F,BLACK OR AFRICAN AMERICAN,NOT HISPANIC OR LATINO,Y,Y,Y,ARM3,Treatment 3,ARM3,Treatment 3,Treatment 3,3,Treatment 3,3,2025-12-29,2026-08-26,2026-07-03,2026-08-11,COMPLETED,COMPLETED,2026-07-03,2026-08-11,40,0.96,38.8,175.7,110.3,29.9,N,,108,9
STUDY001,STUDY001-SUBJ0047,SUBJ0047,46,34,YEARS,F,OTHER,HISPANIC OR LATINO,Y,Y,Y,ARM5,Treatment 5,ARM5,Treatment 5,Treatment 5,5,Treatment 5,5,2025-12-26,2026-08-13,2025-11-07,2026-08-20,COMPLETED,COMPLETED,2025-11-07,2026-08-20,287,0.97,283.4,154.3,60.6,30.7,N,,51,9
STUDY001,STUDY001-SUBJ0048,SUBJ0048,1,33,YEARS,M,WHITE,NOT HISPANIC OR LATINO,Y,Y,Y,ARM3,Treatment 3,ARM3,Treatment 3,Treatment 3,3,Treatment 3,3,2026-02-03,2026-08-26,2026-07-16,2026-08-11,COMPLETED,COMPLETED,2026-07-16,2026-08-11,27,0.99,26.3,161.9,103.8,19.8,N,,48,9
STUDY001,STUDY001-SUBJ0049,SUBJ0049,45,23,YEARS,M,WHITE,HISPANIC OR LATINO,Y,Y,Y,ARM4,Treatment 4,ARM4,Treatment 4,Treatment 4,4,Treatment 4,4,2026-01-08,2026-08-25,2025-10-28,2026-08-21,COMPLETED,COMPLETED,2025-10-28,2026-08-21,298,0.99,297.6,165.1,80.9,29.8,N,,29,9
STUDY001,STUDY001-SUBJ0050,SUBJ0050,1,54,YEARS,F,BLACK OR AFRICAN AMERICAN,NOT HISPANIC OR LATINO,Y,Y,Y,ARM3,Treatment 3,ARM3,Treatment 3,Treatment 3,3,Treatment 3,3,2025-10-24,2026-08-26,2025-09-08,2026-08-18,COMPLETED,COMPLETED,2025-09-08,2026-08-18,345,0.98,339.3,188.1,62.5,26.6,N,,40,9
STUDY001,STUDY001-SUBJ0051,SUBJ0051,42,54,YEARS,M,WHITE,HISPANIC OR LATINO,Y,Y,Y,ARM1,Treatment 1,ARM1,Treatment 1,Treatment 1,1,Treatment 1,1,2025-10-28,2026-08-26,2025-10-29,2026-08-26,COMPLETED,COMPLETED,2025-10-29,2026-08-26,302,0.97,296.4,169.8,50.0,22.3,N,,40,9
STUDY001,STUDY001-SUBJ0052,SUBJ0052,22,57,YEARS,M,WHITE,HISPANIC OR LATINO,Y,Y,Y,ARM2,Treatment 2,ARM2,Treatment 2,Treatment 2,2,Treatment 2,2,2025-10-24,2026-08-23,2026-01-20,2026-07-31,PROTOCOL VIOLATION,PROTOCOL VIOLATION,2026-01-20,2026-07-31,193,0.62,147.0,178.5,77.6,23.2,N,,14,4
STUDY001,STUDY001-SUBJ0053,SUBJ0053,7,24,YEARS,M,BLACK OR AFRICAN AMERICAN,NOT HISPANIC OR LATINO,Y,Y,Y,ARM4,Treatment 4,ARM4,Treatment 4,Treatment 4,4,Treatment 4,4,2026-05-17,2026-08-13,2025-10-06,2026-08-06,COMPLETED,COMPLETED,2025-10-06,2026-08-06,305,1.0,295.2,185.4,69.8,34.4,N,,76,9
STUDY001,STUDY001-SUBJ0054,SUBJ0054,1,22,YEARS,F,ASIAN,HISPANIC OR LATINO,Y,Y,Y,ARM1,Treatment 1,ARM1,Treatment 1,Treatment 1,1,Treatment 1,1,2025-12-17,2026-08-05,2025-12-21,2026-08-01,ADVERSE EVENT,ADVERSE EVENT,2025-12-21,2026-08-01,224,0.61,202.9,158.8,109.4,18.3,N,,8,7
STUDY001,STUDY001-SUBJ0055,SUBJ0055,7,80,YEARS,M,AMERICAN INDIAN OR ALASKA NATIVE,HISPANIC OR LATINO,Y,Y,Y,ARM4,Treatment 4,ARM4,Treatment 4,Treatment 4,4,Treatment 4,4,2026-03-11,2026-08-19,2025-09-26,2026-08-10,PROTOCOL VIOLATION,PROTOCOL VIOLATION,2025-09-26,2026-08-10,319,0.61,265.2,179.2,93.4,23.7,N,,37,2
STUDY001,STUDY001-SUBJ0056,SUBJ0056,25,41,YEARS,M,WHITE,NOT HISPANIC OR LATINO,Y,Y,Y,ARM3,Treatment 3,ARM3,Treatment 3,Treatment 3,3,Treatment 3,3,2026-01-05,2026-08-04,2025-11-21,2026-08-16,COMPLETED,COMPLETED,2025-11-21,2026-08-16,269,0.97,264.0,154.8,110.3,18.8,N,,7,9
STUDY001,STUDY001-SUBJ0057,SUBJ0057,19,67,YEARS,M,WHITE,HISPANIC OR LATINO,Y,Y,Y,ARM3,Treatment 3,ARM3,Treatment 3,Treatment 3,3,Treatment 3,3,2025-12-25,2026-08-18,2025-11-14,2026-08-22,WITHDRAWAL BY SUBJECT,WITHDRAWAL BY SUBJECT,2025-11-14,2026-08-22,282,0.62,145.0,158.4,109.8,21.3,N,,99,1
STUDY001,STUDY001-SUBJ0058,SUBJ0058,46,35,YEARS,F,WHITE,NOT HISPANIC OR LATINO,Y,Y,Y,ARM1,Treatment 1,ARM1,Treatment 1,Treatment 1,1,Treatment 1,1,2025-11-21,2026-08-26,2025-09-28,2026-07-30,COMPLETED,COMPLETED,2025-09-28,2026-07-30,306,0.98,299.1,183.0,83.8,30.6,N,,108,9
STUDY001,STUDY001-SUBJ0059,SUBJ0059,38,19,YEARS,F,AMERICAN INDIAN OR ALASKA NATIVE,NOT HISPANIC OR LATINO,Y,Y,Y,ARM1,Treatment 1,ARM1,Treatment 1,Treatment 1,1,Treatment 1,1,2025-09-27,2026-08-18,2026-07-10,2026-08-22,PROTOCOL VIOLATION,PROTOCOL VIOLATION,2026-07-10,2026-08-22,44,0.62,24.4,162.2,71.3,22.4,N,,87,1
STUDY001,STUDY001-SUBJ0060,SUBJ0060,28,41,YEARS,M,BLACK OR AFRICAN AMERICAN,HISPANIC OR LATINO,Y,Y,Y,ARM4,Treatment 4,ARM4,Treatment 4,Treatment 4,4,Treatment 4,4,2026-02-16,2026-08-22,2026-02-12,2026-08-12,COMPLETED,COMPLETED,2026-02-12,2026-08-12,182,0.96,178.5,193.3,96.7,30.2,N,2026-08-27,41,9
STUDY001,STUDY001-SUBJ0061,SUBJ0061,6,66,YEARS,M,ASIAN,NOT HISPANIC OR LATINO,Y,Y,N,ARM5,Treatment 5,ARM5,Treatment 5,Treatment 5,5,Treatment 5,5,2025-09-03,2026-08-24,2025-12-11,2026-08-18,COMPLETED,COMPLETED,2025-12-11,2026-08-18,251,0.98,240.4,173.8,92.6,25.2,N,,26,9
STUDY001,STUDY001-SUBJ0062,SUBJ0062,48,33,YEARS,M,AMERICAN INDIAN OR ALASKA NATIVE,HISPANIC OR LATINO,Y,Y,Y,ARM5,Treatment 5,ARM5,Treatment 5,Treatment 5,5,Treatment 5,5,2026-04-13,2026-08-21,2026-07-22,2026-08-16,PROTOCOL VIOLATION,PROTOCOL VIOLATION,2026-07-22,2026-08-16,26,0.79,13.9,175.1,92.5,31.6,N,,108,3
STUDY001,STUDY001-SUBJ0063,SUBJ0063,19,35,YEARS,M,ASIAN,NOT HISPANIC OR LATINO,Y,Y,Y,ARM5,Treatment 5,ARM5,Treatment 5,Treatment 5,5,Treatment 5,5,2026-02-05,2026-07-31,2025-09-14,2026-08-12,COMPLETED,COMPLETED,2025-09-14,2026-08-12,333,0.99,325.5,197.6,111.1,19.9,N,,88,9
STUDY001,STUDY001-SUBJ0064,SUBJ0064,23,18,YEARS,M,AMERICAN INDIAN OR ALASKA NATIVE,HISPANIC OR LATINO,Y,Y,Y,ARM2,Treatment 2,ARM2,Treatment 2,Treatment 2,2,Treatment 2,2,2025-10-28,2026-08-17,2026-06-19,2026-07-29,COMPLETED,COMPLETED,2026-06-19,2026-07-29,41,0.96,40.4,189.4,109.3,23.6,N,,13,9
STUDY001,STUDY001-SUBJ0065,SUBJ0065,26,19,YEARS,M,BLACK OR AFRICAN AMERICAN,HISPANIC OR LATINO,Y,Y,Y,ARM2,Treatment 2,ARM4,Treatment 4,Treatment 2,2,Treatment 4,4,2026-02-05,2026-08-21,2026-05-29,2026-08-03,COMPLETED,COMPLETED,2026-05-29,2026-08-03,67,0.99,66.1,169.7,60.0,21.0,N,,106,9
STUDY001,STUDY001-SUBJ0066,SUBJ0066,39,67,YEARS,F,AMERICAN INDIAN OR ALASKA NATIVE,NOT HISPANIC OR LATINO,Y,Y,Y,ARM3,Treatment 3,ARM3,Treatment 3,Treatment 3,3,Treatment 3,3,2025-12-14,2026-08-19,2026-01-16,2026-08-20,COMPLETED,COMPLETED,2026-01-16,2026-08-20,217,0.98,207.9,177.8,59.4,20.8,N,,100,9
STUDY001,STUDY001-SUBJ0067,SUBJ0067,39,67,YEARS,M,OTHER,NOT HISPANIC OR LATINO,Y,Y,Y,ARM4,Treatment 4,ARM4,Treatment 4,Treatment 4,4,Treatment 4,4,2025-12-08,2026-07-30,2026-07-01,2026-08-03,COMPLETED,COMPLETED,2026-07-01,2026-08-03,34,0.95,33.7,188.2,93.7,30.5,N,,76,9
STUDY001,STUDY001-SUBJ0068,SUBJ0068,26,27,YEARS,M,WHITE,NOT HISPANIC OR LATINO,Y,Y,N,ARM2,Treatment 2,ARM2,Treatment 2,Treatment 2,2,Treatment 2,2,2025-09-17,2026-08-26,2025-10-23,2026-08-01,COMPLETED,COMPLETED,2025-10-23,2026-08-01,283,0.98,272.6,192.2,68.2,32.7,N,,50,9
STUDY001,STUDY001-SUBJ0069,SUBJ0069,26,43,YEARS,M,ASIAN,NOT HISPANIC OR LATINO,Y,Y,Y,ARM2,Treatment 2,ARM2,Treatment 2,Treatment 2,2,Treatment 2,2,2026-03-19,2026-07-29,2025-09-23,2026-08-03,COMPLETED,COMPLETED,2025-09-23,2026-08-03,315,0.97,310.3,194.9,107.0,30.0,N,,70,9
STUDY001,STUDY001-SUBJ0070,SUBJ0070,33,40,YEARS,F,OTHER,HISPANIC OR LATINO,Y,Y,Y,ARM5,Treatment 5,ARM5,Treatment 5,Treatment 5,5,Treatment 5,5,2025-12-30,2026-08-04,2025-09-14,2026-08-16,WITHDRAWAL BY SUBJECT,WITHDRAWAL BY SUBJECT,2025-09-14,2026-08-16,337,0.85,244.2,199.4,99.7,28.1,N,,73,6
STUDY001,STUDY001-SUBJ0071,SUBJ0071,1,42,YEARS,F,ASIAN,NOT HISPANIC OR LATINO,Y,Y,Y,ARM1,Treatment 1,ARM1,Treatment 1,Treatment 1,1,Treatment 1,1,2026-06-12,2026-08-23,2026-04-20,2026-08-02,ADVERSE EVENT,ADVERSE EVENT,2026-04-20,2026-08-02,105,0.73,81.7,175.4,91.7,33.1,N,,10,4
STUDY001,STUDY001-SUBJ0072,SUBJ0072,11,28,YEARS,M,WHITE,HISPANIC OR LATINO,Y,Y,Y,ARM3,Treatment 3,ARM3,Treatment 3,Treatment 3,3,Treatment 3,3,2026-05-09,2026-08-10,2026-05-30,2026-08-08,COMPLETED,COMPLETED,2026-05-30,2026-08-08,71,0.96,67.9,198.6,77.7,19.2,N,,81,9
STUDY001,STUDY001-SUBJ0073,SUBJ0073,34,61,YEARS,M,AMERICAN INDIAN OR ALASKA NATIVE,NOT HISPANIC OR LATINO,Y,Y,Y,ARM3,Treatment 3,ARM3,Treatment 3,Treatment 3,3,Treatment 3,3,2026-05-04,2026-08-19,2026-01-18,2026-08-23,COMPLETED,COMPLETED,2026-01-18,2026-08-23,218,0.96,209.3,192.9,92.0,31.9,N,,44,9
STUDY001,STUDY001-SUBJ0074,SUBJ0074,6,24,YEARS,F,AMERICAN INDIAN OR ALASKA NATIVE,HISPANIC OR LATINO,Y,Y,Y,ARM3,Treatment 3,ARM3,Treatment 3,Treatment 3,3,Treatment 3,3,2026-06-11,2026-08-01,2026-04-29,2026-08-12,COMPLETED,COMPLETED,2026-04-29,2026-08-12,106,0.97,102.2,154.6,64.3,27.7,N,,50,9
STUDY001,STUDY001-SUBJ0075,SUBJ0075,45,42,YEARS,M,OTHER,NOT HISPANIC OR LATINO,Y,Y,Y,ARM1,Treatment 1,ARM1,Treatment 1,Treatment 1,1,Treatment 1,1,2026-01-19,2026-07-30,2025-08-31,2026-08-15,LOST TO FOLLOW-UP,LOST TO FOLLOW-UP,2025-08-31,2026-08-15,350,0.74,269.1,150.8,61.4,31.0,N,,32,2
STUDY001,STUDY001-SUBJ0076,SUBJ0076,24,43,YEARS,F,AMERICAN INDIAN OR ALASKA NATIVE,HISPANIC OR LATINO,Y,Y,Y,ARM2,Treatment 2,ARM2,Treatment 2,Treatment 2,2,Treatment 2,2,2025-12-23,2026-08-14,2025-09-06,2026-08-05,COMPLETED,COMPLETED,2025-09-06,2026-08-05,334,0.98,319.1,194.3,59.7,23.2,N,,3,9
STUDY001,STUDY001-SUBJ0077,SUBJ0077,37,67,YEARS,M,BLACK OR AFRICAN AMERICAN,HISPANIC OR LATINO,Y,Y,Y,ARM4,Treatment 4,ARM4,Treatment 4,Treatment 4,4,Treatment 4,4,2025-12-05,2026-08-10,2026-01-16,2026-08-10,COMPLETED,COMPLETED,2026-01-16,2026-08-10,207,0.97,199.9,172.0,54.2,27.7,N,,72,9
STUDY001,STUDY001-SUBJ0078,SUBJ0078,50,61,YEARS,F,WHITE,NOT HISPANIC OR LATINO,Y,Y,Y,ARM2,Treatment 2,ARM2,Treatment 2,Treatment 2,2,Treatment 2,2,2026-04-06,2026-08-26,2025-12-16,2026-08-05,COMPLETED,COMPLETED,2025-12-16,2026-08-05,233,0.95,224.8,184.1,64.7,18.0,N,2026-08-20,70,9
STUDY001,STUDY001-SUBJ0079,SUBJ0079,40,75,YEARS,M,AMERICAN INDIAN OR ALASKA NATIVE,NOT HISPANIC OR LATINO,Y,Y,Y,ARM3,Treatment 3,ARM3,Treatment 3,Treatment 3,3,Treatment 3,3,2025-11-07,2026-07-29,2025-12-07,2026-08-01,COMPLETED,COMPLETED,2025-12-07,2026-08-01,238,0.95,233.9,170.7,61.0,18.1,N,,114,9
STUDY001,STUDY001-SUBJ0080,SUBJ0080,5,59,YEARS,F,BLACK OR AFRICAN AMERICAN,HISPANIC OR LATINO,Y,Y,Y,ARM5,Treatment 5,ARM5,Treatment 5,Treatment 5,5,Treatment 5,5,2026-07-10,2026-08-03,2025-12-12,2026-08-19,LOST TO FOLLOW-UP,LOST TO FOLLOW-UP,2025-12-12,2026-08-19,251,0.81,181.0,192.5,102.0,34.7,N,,44,1
STUDY001,STUDY001-SUBJ0081,SUBJ0081,21,54,YEARS,F,BLACK OR AFRICAN AMERICAN,NOT HISPANIC OR LATINO,Y,Y,Y,ARM3,Treatment 3,ARM3,Treatment 3,Treatment 3,3,Treatment 3,3,2026-06-06,2026-08-09,2026-06-22,2026-08-08,COMPLETED,COMPLETED,2026-06-22,2026-08-08,48,0.98,46.2,187.2,111.1,32.4,N,,114,9
STUDY001,STUDY001-SUBJ0082,SUBJ0082,46,36,YEARS,M,ASIAN,HISPANIC OR LATINO,Y,Y,Y,ARM2,Treatment 2,ARM2,Treatment 2,Treatment 2,2,Treatment 2,2,2026-07-05,2026-08-04,2026-01-03,2026-08-04,COMPLETED,COMPLETED,2026-01-03,2026-08-04,214,1.0,208.0,199.1,60.0,30.0,N,,88,9
STUDY001,STUDY001-SUBJ0083,SUBJ0083,43,21,YEARS,F,OTHER,HISPANIC OR LATINO,Y,Y,Y,ARM2,Treatment 2,ARM2,Treatment 2,Treatment 2,2,Treatment 2,2,2025-11-27,2026-08-17,2026-06-24,2026-08-03,COMPLETED,COMPLETED,2026-06-24,2026-08-03,41,0.99,39.7,193.1,112.4,20.5,N,,107,9
STUDY001,STUDY001-SUBJ0084,SUBJ0084,23,50,YEARS,M,AMERICAN INDIAN OR ALASKA NATIVE,HISPANIC OR LATINO,Y,Y,Y,ARM1,Treatment 1,ARM1,Treatment 1,Treatment 1,1,Treatment 1,1,2026-01-05,2026-08-19,2026-05-11,2026-08-12,COMPLETED,COMPLETED,2026-05-11,2026-08-12,94,0.96,93.3,151.5,74.0,33.6,N,,2,9
STUDY001,STUDY001-SUBJ0085,SUBJ0085,19,58,YEARS,F,AMERICAN INDIAN OR ALASKA NATIVE,NOT HISPANIC OR LATINO,Y,Y,Y,ARM5,Treatment 5,ARM5,Treatment 5,Treatment 5,5,Treatment 5,5,2026-07-07,2026-08-21,2026-07-27,2026-08-05,PROTOCOL VIOLATION,PROTOCOL VIOLATION,2026-07-27,2026-08-05,10,0.66,9.0,199.7,58.8,24.7,N,,78,3
STUDY001,STUDY001-SUBJ0086,SUBJ0086,27,34,YEARS,M,WHITE,HISPANIC OR LATINO,Y,Y,Y,ARM5,Treatment 5,ARM5,Treatment 5,Treatment 5,5,Treatment 5,5,2026-04-08,2026-08-05,2026-05-25,2026-08-20,COMPLETED,COMPLETED,2026-05-25,2026-08-20,88,1.0,87.5,175.2,65.3,33.8,N,,84,9
STUDY001,STUDY001-SUBJ0087,SUBJ0087,44,20,YEARS,M,AMERICAN INDIAN OR ALASKA NATIVE,NOT HISPANIC OR LATINO,Y,Y,Y,ARM4,Treatment 4,ARM4,Treatment 4,Treatment 4,4,Treatment 4,4,2026-01-30,2026-08-10,2026-05-10,2026-08-17,COMPLETED,COMPLETED,2026-05-10,2026-08-17,100,0.97,98.7,182.9,69.9,32.0,N,,116,9
STUDY001,STUDY001-SUBJ0088,SUBJ0088,20,50,YEARS,F,WHITE,NOT HISPANIC OR LATINO,Y,Y,Y,ARM3,Treatment 3,ARM3,Treatment 3,Treatment 3,3,Treatment 3,3,2025-11-25,2026-08-19,2026-06-05,2026-08-19,COMPLETED,COMPLETED,2026-06-05,2026-08-19,76,0.97,73.6,186.9,63.9,20.7,N,,109,9
STUDY001,STUDY001-SUBJ0089,SUBJ0089,28,29,YEARS,F,AMERICAN INDIAN OR ALASKA NATIVE,NOT HISPANIC OR LATINO,Y,Y,Y,ARM2,Treatment 2,ARM2,Treatment 2,Treatment 2,2,Treatment 2,2,2025-11-27,2026-07-31,2025-11-02,2026-08-05,COMPLETED,COMPLETED,2025-11-02,2026-08-05,277,0.95,266.6,192.8,94.9,33.9,N,,41,9
STUDY001,STUDY001-SUBJ0090,SUBJ0090,50,63,YEARS,M,OTHER,NOT HISPANIC OR LATINO,Y,Y,Y,ARM2,Treatment 2,ARM2,Treatment 2,Treatment 2,2,Treatment 2,2,2025-12-18,2026-08-18,2026-03-28,2026-08-14,COMPLETED,COMPLETED,2026-03-28,2026-08-14,140,0.96,138.8,186.6,65.4,21.1,N,,32,9
STUDY001,STUDY001-SUBJ0091,SUBJ0091,37,57,YEARS,F,ASIAN,NOT HISPANIC OR LATINO,Y,Y,Y,ARM5,Treatment 5,ARM5,Treatment 5,Treatment 5,5,Treatment 5,5,2026-05-22,2026-08-16,2026-03-27,2026-08-07,COMPLETED,COMPLETED,2026-03-27,2026-08-07,134,0.96,132.9,153.6,78.4,29.3,N,,73,9
STUDY001,STUDY001-SUBJ0092,SUBJ0092,49,68,YEARS,M,OTHER,HISPANIC OR LATINO,Y,Y,Y,ARM1,Treatment 1,ARM1,Treatment 1,Treatment 1,1,Treatment 1,1,2026-07-06,2026-08-15,2026-07-12,2026-08-20,COMPLETED,COMPLETED,2026-07-12,2026-08-20,40,0.98,38.4,163.1,90.9,31.4,N,,35,9
STUDY001,STUDY001-SUBJ0093,SUBJ0093,36,31,YEARS,F,WHITE,NOT HISPANIC OR LATINO,Y,Y,Y,ARM4,Treatment 4,ARM4,Treatment 4,Treatment 4,4,Treatment 4,4,2026-07-02,2026-07-29,2026-03-13,2026-07-29,COMPLETED,COMPLETED,2026-03-13,2026-07-29,139,0.97,133.2,150.6,58.1,32.5,N,,27,9
STUDY001,STUDY001-SUBJ0094,SUBJ0094,46,31,YEARS,M,AMERICAN INDIAN OR ALASKA NATIVE,NOT HISPANIC OR LATINO,Y,Y,Y,ARM1,Treatment 1,ARM1,Treatment 1,Treatment 1,1,Treatment 1,1,2025-12-11,2026-08-16,2025-09-15,2026-08-16,COMPLETED,COMPLETED,2025-09-15,2026-08-16,336,0.95,321.6,162.0,89.8,29.5,N,,21,9
STUDY001,STUDY001-SUBJ0095,SUBJ0095,40,19,YEARS,M,BLACK OR AFRICAN AMERICAN,NOT HISPANIC OR LATINO,Y,Y,Y,ARM5,Treatment 5,ARM5,Treatment 5,Treatment 5,5,Treatment 5,5,2026-03-30,2026-08-18,2025-12-13,2026-08-12,COMPLETED,COMPLETED,2025-12-13,2026-08-12,243,1.0,237.3,188.4,99.3,27.8,N,,6,9
STUDY001,STUDY001-SUBJ0096,SUBJ0096,17,55,YEARS,M,BLACK OR AFRICAN AMERICAN,NOT HISPANIC OR LATINO,Y,Y,Y,ARM4,Treatment 4,ARM4,Treatment 4,Treatment 4,4,Treatment 4,4,2025-10-29,2026-08-11,2025-12-30,2026-08-20,COMPLETED,COMPLETED,2025-12-30,2026-08-20,234,0.98,233.2,163.1,68.6,29.0,N,,70,9
STUDY001,STUDY001-SUBJ0097,SUBJ0097,23,59,YEARS,F,OTHER,NOT HISPANIC OR LATINO,Y,Y,Y,ARM4,Treatment 4,ARM4,Treatment 4,Treatment 4,4,Treatment 4,4,2026-02-03,2026-08-04,2026-01-14,2026-08-25,COMPLETED,COMPLETED,2026-01-14,2026-08-25,224,0.99,214.0,177.9,94.9,25.8,N,,86,9
STUDY001,STUDY001-SUBJ0098,SUBJ0098,37,78,YEARS,F,AMERICAN INDIAN OR ALASKA NATIVE,HISPANIC OR LATINO,Y,Y,N,ARM5,Treatment 5,ARM5,Treatment 5,Treatment 5,5,Treatment 5,5,2025-12-08,2026-08-04,2026-04-11,2026-08-15,COMPLETED,COMPLETED,2026-04-11,2026-08-15,127,0.97,125.8,163.3,50.8,23.0,N,,51,9
STUDY001,STUDY001-SUBJ0099,SUBJ0099,6,22,YEARS,M,BLACK OR AFRICAN AMERICAN,NOT HISPANIC OR LATINO,Y,Y,Y,ARM2,Treatment 2,ARM2,Treatment 2,Treatment 2,2,Treatment 2,2,2026-04-26,2026-08-05,2025-12-22,2026-07-29,COMPLETED,COMPLETED,2025-12-22,2026-07-29,220,0.96,212.2,177.3,118.2,22.1,N,,74,9
STUDY001,STUDY001-SUBJ0100,SUBJ0100,50,63,YEARS,M,AMERICAN INDIAN OR ALASKA NATIVE,HISPANIC OR LATINO,Y,Y,Y,ARM3,Treatment 3,ARM3,Treatment 3,Treatment 3,3,Treatment 3,3,2026-05-04,2026-08-04,2026-04-29,2026-08-21,COMPLETED,COMPLETED,2026-04-29,2026-08-21,115,0.99,113.1,199.1,118.8,18.8,N,,2,9
